Time,ax,ay,az
0.0709998607635498,-0.01951899214481467,-0.057181360104661016,-4.940355569695472
0.14699983596801758,-0.019613455300917623,-0.05724216756248809,-4.9413537224720345
0.25300002098083496,-0.019596922896213113,-0.05722293870717988,-4.942251207759391
0.35699987411499023,-0.019455700457033258,-0.05711425676756943,-4.942881844305521
0.4719998836517334,-0.019257530063012337,-0.05692993689181152,-4.942797688415075
0.5690000057220459,-0.019156159332831994,-0.05688018987488668,-4.9422133908719115
0.7209999561309814,-0.019162923345881874,-0.056960738014293966,-4.94066502901414
0.8389999866485596,-0.019277820021567377,-0.05731393975386572,-4.938301739862803
0.9419999122619629,-0.019253329342511658,-0.05750315734931585,-4.9375661747697235
1.0419998168945312,-0.019224257194143158,-0.0576256585982703,-4.937268965992071
1.1689999103546143,-0.019041780725202292,-0.05758049305065823,-4.937978964738686
1.2689998149871826,-0.018985731587229132,-0.05742327500018109,-4.938914266913522
1.371999979019165,-0.019043187207152992,-0.05732763422753362,-4.939291370523877
1.4879999160766602,-0.01919837459729895,-0.05725111828046428,-4.939450627557064
1.5929999351501465,-0.019359643565465462,-0.05720256968602997,-4.939427191739471
1.6929998397827148,-0.01937974002872255,-0.057225085880808754,-4.939430387532779
1.7960000038146973,-0.019351593744951778,-0.05720776285015563,-4.939843710133959
1.9010000228881836,-0.019243015835071407,-0.057172380258360404,-4.94053879517847
2.006999969482422,-0.019067324185126435,-0.05709325940684983,-4.942111658118271
2.1089999675750732,-0.018904270066791733,-0.05702760000241177,-4.944543124193514
2.2159998416900635,-0.01884437598999477,-0.05701037267911032,-4.946712535217491
2.299999952316284,-0.018743415136950946,-0.05708306865449107,-4.950893698128916
2.4029998779296875,-0.01872347679888358,-0.05717165621143904,-4.954168321005278
2.4679999351501465,-0.018684390748697464,-0.05729874309089546,-4.957644278860049
2.559999942779541,-0.018675286066720757,-0.0574149734277206,-4.961017971328961
2.625,-0.018639859782438897,-0.05752631020604273,-4.96406782340932
2.7200000286102295,-0.018505675994796335,-0.05755321645543094,-4.96674163714376
2.7929999828338623,-0.01789714576630783,-0.05744123885397151,-4.969282292823695
2.8919999599456787,-0.016602117107229548,-0.05714451693545545,-4.971958769719225
2.997999906539917,-0.012128900091277825,-0.05621015102819035,-4.977773515643304
3.0969998836517334,-0.007830663682065968,-0.0554745027113264,-4.9823648053626
3.197999954223633,-0.00464840672244905,-0.055063393862802235,-4.984652460738978
3.313999891281128,-0.017702110828351558,-0.0561945881805702,-4.971748379993109
3.431999921798706,-0.06540220549459937,-0.058028852864929883,-4.935936852814813
3.509999990463257,-0.12427740263157802,-0.05858073058301076,-4.901506973610051
3.5820000171661377,-0.20769142794454834,-0.05758835769825237,-4.863880235832757
3.684000015258789,-0.31440281144066706,-0.05412592786958071,-4.828508662866542
3.7819998264312744,-0.4382513535905799,-0.04789960288259757,-4.798633321758034
3.8909997940063477,-0.6343320150383848,-0.03446798321429655,-4.763155754980434
4.003000020980835,-0.8145099096424042,-0.01999169907711453,-4.731435908500936
4.156999826431274,-0.964822849466166,-0.008060592272086083,-4.696939450268922
4.2809998989105225,-1.1231925839567174,0.0028850749696195705,-4.64531034411221
4.376999855041504,-1.1874903474189364,0.006655801844799105,-4.618943451423771
4.488999843597412,-1.2620029315582635,0.01080279151004048,-4.58396283050558
4.603999853134155,-1.301374306165668,0.01318849074583089,-4.559836721558335
4.764999866485596,-1.295283523594602,0.013212231370532726,-4.550349476491037
4.885999917984009,-1.205944855350695,0.008470644178552627,-4.562976588483538
4.984999895095825,-1.1266696070759248,0.003733538847418751,-4.578461804957913
5.096999883651733,-0.9719410130067571,-0.006164628595112526,-4.610006948069902
5.199999809265137,-0.7927470898464947,-0.01858016336212909,-4.6487101355598055
5.303999900817871,-0.6696133734226728,-0.027087223667845297,-4.678417164887421
5.4039998054504395,-0.49394920397120146,-0.037923750979053816,-4.73160954660401
5.557999849319458,-0.34559278873177995,-0.043887700503204514,-4.793793292792924
5.722999811172485,-0.1946806210179935,-0.041175803565176826,-4.881310092535108
5.8399999141693115,-0.09296883144817254,-0.03185888429434593,-4.9458406162766
5.940999984741211,-0.05976063162040276,-0.02833137554713006,-4.959829668850568
6.051999807357788,-0.03111178854598384,-0.02712242524791018,-4.956260500357644
6.161999940872192,-0.022799623778385594,-0.029998770302655662,-4.934975451661295
6.258999824523926,-0.021514267803610265,-0.03287392525728901,-4.920638590248962
6.36299991607666,-0.010821852877483261,-0.03748660140849572,-4.908816285537882
6.523000001907349,0.03042113516797462,-0.042372665609761266,-4.915214263740689
6.636999845504761,0.14517052556163013,-0.05089024540178329,-4.952151775427869
6.747999906539917,0.26513927476697463,-0.05820927370640435,-5.001172581612958
6.851999998092651,0.3503904734355577,-0.06190844191122724,-5.044011125643537
6.9670000076293945,0.4741628491782942,-0.06427394065403048,-5.119642237440697
7.067999839782715,0.5847857005911964,-0.0635227461343032,-5.198057417841426
7.172999858856201,0.6489853265672461,-0.06255435834411233,-5.244300014377344
7.292999982833862,0.7313073642871214,-0.060110508569801116,-5.308154095201956
7.392999887466431,0.7985704910441165,-0.05637766802194554,-5.370312275044405
7.49399995803833,0.8371055664902087,-0.05300723792536851,-5.415433680761399
7.596999883651733,0.8888011850951456,-0.04805444073285046,-5.487831182362986
7.69599986076355,0.9199728198642506,-0.04540633898649778,-5.5358160188840335
7.809999942779541,0.962224736085712,-0.043052778695518656,-5.597235970472313
7.960999965667725,0.9986096418467015,-0.0419189128942822,-5.63418786322938
8.121999979019165,1.0400201323217524,-0.038199879172203,-5.648362271815218
8.253999948501587,1.0821871602834676,-0.03127792194432895,-5.656496098416538
8.355000019073486,1.114843107886128,-0.02670434848806517,-5.671227640302421
8.431999921798706,1.1326819595528876,-0.02517085247872171,-5.679365727961485
8.530999898910522,1.1426511036194358,-0.02473722951601336,-5.678755331439638
8.681999921798706,1.134423001115527,-0.025481067053229306,-5.647705536290404
8.807999849319458,1.0672999566318702,-0.029856927846284517,-5.531587984337424
8.924000024795532,0.9749995203606586,-0.03664239598769741,-5.410726809850794
9.039999961853027,0.8551302402220285,-0.04611629612122087,-5.294476099843309
9.146999835968018,0.7172138492193948,-0.05502945936484974,-5.204911329222854
9.254999876022339,0.6200460865819,-0.05895768855174387,-5.163636060752152
9.368000030517578,0.4713551117305373,-0.060540634052984134,-5.1242079608135285
9.480000019073486,0.32720346166770103,-0.057621780369932867,-5.103716001489805
9.572999954223633,0.23735682873537492,-0.054834449394028685,-5.093926753954892
9.720999956130981,0.12049663766766863,-0.05179739713165914,-5.081854644733562
9.842000007629395,0.01333227647755995,-0.052380358933088275,-5.07135380055538
9.953999996185303,-0.02701470454300568,-0.05612613661817676,-5.067699943539791
10.031999826431274,-0.03788282984442907,-0.05972773325856187,-5.064113198183673
10.128000020980835,-0.039752527054854415,-0.06219065792418078,-5.058305909110646
10.233999967575073,-0.03364658527152126,-0.05653068743251661,-5.04780879335799
10.339999914169312,-0.027787936720753373,-0.04080015220985354,-5.043885957072303
10.449999809265137,-0.019464291232143365,0.01126061490885762,-5.054713304800129
10.56499981880188,-0.011021145752291756,0.10629104512994174,-5.1012563059070075
10.666999816894531,-0.00222295304545675,0.2459232692110215,-5.1892024072169125
10.766999959945679,0.0035509300006463557,0.3557924959697017,-5.2573686784785805
10.871999979019165,0.01001547682773169,0.5224125370697503,-5.338919464746769
10.968999862670898,0.012283966806936893,0.6206357104472435,-5.365819522285442
11.078999996185303,0.01337276276791296,0.7374147916150001,-5.369183094742212
11.240000009536743,0.012955523447395104,0.8168911085520714,-5.345777637185941
11.368000030517578,0.012595663805098148,0.871423393192106,-5.3062557939769475
11.477999925613403,0.013263262114326768,0.8738412771457891,-5.279401010176806
11.549999952316284,0.014103719343950247,0.8541045903072118,-5.258006239243546
11.626999855041504,0.014881977197958165,0.8145109749068402,-5.226518087778885
11.721999883651733,0.015049729298903336,0.7538090115484462,-5.1796864000098415
11.792999982833862,0.01419271469744013,0.673454716979003,-5.11677188241781
11.891999959945679,0.01192030903919467,0.5779863174330878,-5.043207916258769
12.000999927520752,0.006381919133373724,0.42123921370520817,-4.937014367791859
12.113999843597412,1.8744117402647576e-05,0.26991918287047606,-4.866967372168377
12.27899980545044,-0.005920995128451512,0.14125659422083836,-4.843325425907308
12.401999950408936,-0.011395147196095955,0.02208126520266114,-4.8818736174217685
12.508999824523926,-0.01329970268847692,-0.027708805466269793,-4.9476185426203365
12.585999965667725,-0.013193049328603051,-0.046221228829359196,-4.999925689590583
12.662999868392944,-0.012028485394316928,-0.05898159874490573,-5.0490908391067535
12.75599980354309,-0.009509324337210716,-0.07262465259781302,-5.0874424893327665
12.828999996185303,-0.00619497666812047,-0.09429957143299311,-5.106118172793057
12.924000024795532,-0.002769324469924424,-0.13006654891967864,-5.09870286705384
13.079999923706055,-0.0001597458591356029,-0.21671721377396314,-5.033977932552772
13.197999954223633,-0.007293017751208855,-0.3887531757800946,-4.8808168751012255
13.319999933242798,-0.021877475122621236,-0.5468927132839222,-4.766876723655493
13.382999897003174,-0.03535135374787584,-0.6582857508840753,-4.71078362687959
13.48199987411499,-0.05034076868987269,-0.7680159772786102,-4.6753225717007485
13.549999952316284,-0.06645534422529278,-0.8694533863547472,-4.661052821947886
13.644999980926514,-0.08298494844946652,-0.9554379363637541,-4.66683401204223
13.754999876022339,-0.10345794939518023,-1.04225618895201,-4.704891649283899
13.858999967575073,-0.1106495412804518,-1.066866327427378,-4.741960188496711
13.964999914169312,-0.10573962098148403,-1.0503893497630576,-4.8068614242619425
14.07099986076355,-0.08421537048497517,-0.970915562829022,-4.89111851482987
14.169999837875366,-0.06672787715097037,-0.8880252065325238,-4.963689654534529
14.280999898910522,-0.04290170672149471,-0.7361770209193585,-5.084494370006049
14.401999950408936,-0.02482862795626812,-0.5793673661953757,-5.180981228931838
14.508999824523926,-0.012705785516172923,-0.44116318734744525,-5.226077600934586
14.590999841690063,-0.0070093349190611725,-0.36248292254971237,-5.231006046847886
14.663999795913696,-0.0026079265048926143,-0.2932571459378698,-5.2243987441834
14.763000011444092,0.00039358123690498174,-0.23270205591359355,-5.2116177014798915
14.918999910354614,0.002845596467276723,-0.15733947397809733,-5.191794195589778
15.043999910354614,0.004091692402142376,-0.0877880510215869,-5.172287605869383
15.151999950408936,0.006892822141518856,-0.06105716662997261,-5.15905169525169
15.230999946594238,0.011520983638196801,-0.05628792781558827,-5.1444320061315905
15.325999975204468,0.01839081885040826,-0.061987679276035504,-5.118756470062136
15.435999870300293,0.030455931032092185,-0.08421987289169308,-5.056251014013541
15.508999824523926,0.03650385751555365,-0.10390819838935016,-4.994123726839736
15.603999853134155,0.03792797042490591,-0.12591784328403957,-4.906981900179035
15.711999893188477,0.025747060670073978,-0.15443704450883128,-4.746507269741913
15.787999868392944,0.006075104250445181,-0.16846048515037515,-4.630330595612732
15.884999990463257,-0.023567841723143374,-0.17663875325238587,-4.524577001357904
15.997999906539917,-0.08101415098615904,-0.1746674647687524,-4.412415841520344
16.07099986076355,-0.11980691223485174,-0.16338067181861712,-4.369181285435671
16.164999961853027,-0.15162929041631756,-0.1461131847189773,-4.342205061489823
16.276999950408936,-0.180384872154989,-0.11142295655052444,-4.326122764299052
16.389999866485596,-0.18409230864275875,-0.07123383336327595,-4.332532993042872
16.488999843597412,-0.17520149514634054,-0.046744069769179795,-4.345391001101884
16.63699984550476,-0.14601999072558133,-0.02086182038427067,-4.373783227799328
16.80299997329712,-0.07998196800429318,-0.01774651071715022,-4.429472323037866
16.93499994277954,0.0062442992437465785,-0.04004129694080307,-4.558079567871101
17.050999879837036,0.07122676766400883,-0.05650619051167708,-4.751726000214032
17.161999940872192,0.12239087757201474,-0.06029588538761665,-5.030563227403072
17.263000011444092,0.14517362148639734,-0.05333109079748975,-5.21930891070804
17.375,0.16092332314653057,-0.032174785133899764,-5.427157981144364
17.485999822616577,0.15717568957105746,-0.0048681414392185065,-5.530958945687947
17.58799982070923,0.1330513449680338,0.018092886025834053,-5.539582261297624
17.671000003814697,0.10529452353954771,0.026343527611062265,-5.498922715670948
17.759999990463257,0.07004879325721794,0.02664158319071797,-5.428509269081471
17.921000003814697,0.0114668028741759,0.009083982141016834,-5.2845291931718625
18.033999919891357,-0.048388725706304245,-0.03878096843849068,-5.0939272865871095
18.131999969482422,-0.062412465953470754,-0.06393579409699608,-5.025708284735858
18.23099994659424,-0.06255991769288788,-0.09170127496021412,-4.971017608589991
18.335999965667725,-0.05392399367992545,-0.10029398918448999,-4.962669663837029
18.44599986076355,-0.03741593193225694,-0.09803016909986814,-4.979144510972477
18.569999933242798,-0.02445667381755192,-0.08345160085147565,-5.008205990051858
18.681999921798706,-0.01788956407957951,-0.06661739757762411,-5.027185806508634
18.789999961853027,-0.016569223946875166,-0.05635573439365522,-5.024604670780129
18.868000030517578,-0.01701818609328399,-0.05381968515016762,-5.015221821627562
18.965999841690063,-0.01788857579714374,-0.05344999677897259,-5.004485021376799
19.120999813079834,-0.018400302200602466,-0.05460742739466704,-4.991533536363526
19.243000030517578,-0.01863984937946589,-0.05632470440576659,-4.980547996866949
19.347999811172485,-0.018444184021345324,-0.056626511297489024,-4.9767934723621545
19.450999975204468,-0.018417698052066646,-0.05680361567116849,-4.974519665423445
19.561999797821045,-0.018448357694116183,-0.05689311868974117,-4.971864493816636
19.663999795913696,-0.01849430970648766,-0.0569148026466793,-4.970363536226268
19.764999866485596,-0.01853245324731924,-0.0569391414423291,-4.968556847742757
19.876999855041504,-0.018569550249066202,-0.05696954725183724,-4.967336054699065
19.98199987411499,-0.018576618028927922,-0.05698809783330533,-4.966923264730103
20.096999883651733,-0.018531179923423045,-0.057007742807533866,-4.966941906857733
20.244999885559082,-0.01848096477271284,-0.05698579669567593,-4.9675650865528125
20.37999987602234,-0.018525483255403798,-0.05688625272755581,-4.968538205615127
20.496999979019165,-0.01866424851235914,-0.05679959180120895,-4.9689483324229995
20.60199999809265,-0.018773294556024875,-0.05675381455878401,-4.96910918735284
20.71299982070923,-0.01885936251291027,-0.056695857515561165,-4.969177896908964
20.878000020980835,-0.018852153252615644,-0.056605597160553495,-4.969426636154777
21.019999980926514,-0.01867489283434105,-0.05646730003738352,-4.9701302433147765
21.131999969482422,-0.01858640306533936,-0.05639406726859554,-4.970451953174458
21.240000009536743,-0.01839467627279967,-0.05645965177162795,-4.970398689952656
