Time,yaw,pitch,roll,magx,magy,magz,accelx,accely,accelz,gyrox,gyroy,gyroz
0.07499980926513672,-17.081,-2.983,-0.664,0.0474,0.2314,0.4046,-0.542,0.085,-9.735,0.001854,-0.001146,0.000669
0.15199995040893555,-17.078,-2.983,-0.667,0.0494,0.2278,0.4008,-0.541,0.156,-9.746,-0.000301,-0.00211,0.00255
0.25799989700317383,-17.076,-2.981,-0.671,0.0452,0.2267,0.4058,-0.388,0.245,-9.804,-0.000662,-0.004455,0.001036
0.36099982261657715,-17.07,-2.983,-0.669,0.0472,0.223,0.4034,-0.489,0.242,-9.819,0.001404,-0.001896,-0.000512
0.47499990463256836,-17.072,-2.983,-0.669,0.0452,0.2243,0.4046,-0.495,0.124,-9.748,0.000877,-1.8e-05,0.001819
0.5729999542236328,-17.073,-2.985,-0.668,0.0474,0.2314,0.402,-0.537,0.057,-9.603,-0.000279,0.000904,-0.001213
0.7259998321533203,-17.069,-2.985,-0.669,0.0474,0.2314,0.4046,-0.501,0.096,-9.745,-0.000515,-0.000734,-0.000861
0.8439998626708984,-17.066,-2.983,-0.667,0.0505,0.2254,0.4048,-0.471,0.061,-9.694,4.6e-05,-0.001542,-0.000499
0.9459998607635498,-17.063,-2.983,-0.667,0.0441,0.2231,0.4059,-0.539,0.148,-9.743,-0.00072,-0.000318,0.001148
1.0469999313354492,-17.063,-2.984,-0.669,0.0473,0.2242,0.406,-0.641,0.198,-9.817,-0.006083,0.003523,0.001282
1.1729998588562012,-17.064,-2.981,-0.672,0.0484,0.2278,0.4047,-0.536,0.176,-9.751,-0.001419,-0.000389,-0.000724
1.2719998359680176,-17.063,-2.982,-0.671,0.0463,0.229,0.4033,-0.537,0.141,-9.731,0.00131,0.000754,0.000329
1.376999855041504,-17.065,-2.982,-0.669,0.0474,0.2278,0.4072,-0.569,0.124,-9.746,7.9e-05,-0.001394,-0.000179
1.49399995803833,-17.063,-2.98,-0.668,0.0483,0.2242,0.4021,-0.478,0.129,-9.757,-0.000802,0.002061,-0.000523
1.5969998836517334,-17.064,-2.98,-0.667,0.0464,0.2326,0.4032,-0.475,0.145,-9.774,0.001026,6e-06,0.000565
1.6999998092651367,-17.061,-2.978,-0.667,0.0463,0.2302,0.4045,-0.489,0.124,-9.744,0.000855,-0.000247,-5.2e-05
1.7999999523162842,-17.06,-2.98,-0.666,0.0473,0.2242,0.4034,-0.508,0.095,-9.73,4.4e-05,-2.5e-05,-0.000344
1.9059998989105225,-17.058,-2.979,-0.668,0.0494,0.2254,0.4022,-0.533,0.145,-9.741,1.7e-05,-0.001156,0.000534
2.0119998455047607,-17.05,-2.978,-0.672,0.0483,0.2254,0.4034,-0.562,0.134,-9.787,0.000433,-0.000825,-0.000678
2.115000009536743,-17.039,-2.974,-0.674,0.0484,0.2266,0.4047,-0.54,0.174,-9.746,0.000773,0.000838,0.001664
2.2219998836517334,-17.034,-2.951,-0.676,0.0484,0.2302,0.4033,-0.42,0.17,-9.796,-0.002065,0.007696,0.001571
2.303999900817871,-17.034,-2.977,-0.67,0.0483,0.2242,0.4021,-0.521,0.057,-9.727,-0.001267,-0.002602,-0.000677
2.4069998264312744,-17.027,-2.974,-0.678,0.0506,0.2325,0.4008,-0.521,0.084,-9.709,-0.0018,0.003629,0.001466
2.4719998836517334,-17.021,-2.969,-0.68,0.0515,0.2266,0.4023,-0.398,0.077,-9.7,-0.001162,0.001649,0.000892
2.56499981880188,-17.014,-2.959,-0.697,0.0463,0.229,0.4046,-0.467,0.126,-9.758,-0.006957,-0.005574,-0.000176
2.626999855041504,-17.015,-2.959,-0.718,0.0484,0.2266,0.406,-0.479,0.124,-9.685,-0.009253,0.003708,-0.001925
2.7259998321533203,-17.059,-2.893,-0.81,0.0484,0.2266,0.4034,-0.056,-0.054,-9.844,-0.026531,0.006292,-0.0534
2.7990000247955322,-17.856,-2.864,-1.351,0.0472,0.2195,0.4035,-0.444,-1.268,-9.768,-0.318911,0.02452,-0.300881
2.8980000019073486,-19.786,-2.713,-5.019,0.0403,0.1898,0.4114,-0.686,-0.331,-9.661,-0.942899,0.065838,-0.325478
3.001999855041504,-21.428,-2.378,-11.869,0.0361,0.1284,0.4251,-0.852,0.922,-9.169,-1.440617,0.153214,-0.235088
3.1009998321533203,-22.635,-1.664,-21.136,0.0206,0.054,0.4138,-0.479,3.106,-8.524,-1.738533,0.174929,-0.077601
3.2009999752044678,-23.39,-0.92,-30.737,0.0169,-0.0321,0.4193,-0.402,6.078,-7.742,-1.51696,0.231651,-0.162597
3.317999839782715,-25.261,-0.248,-40.534,-0.001,-0.1177,0.3873,0.753,6.164,-7.152,-1.372285,0.088603,0.057459
3.435999870300293,-25.446,0.474,-50.035,-0.0188,-0.1794,0.3604,-0.176,8.074,-5.832,-1.230886,0.130648,0.005848
3.513000011444092,-25.978,0.806,-54.958,-0.0222,-0.2256,0.3296,0.635,8.053,-5.35,-1.09381,0.105831,0.011467
3.5859999656677246,-26.102,0.997,-57.999,-0.0311,-0.2475,0.3069,0.355,8.735,-4.928,-1.016316,0.06314,0.031101
3.686999797821045,-26.024,1.41,-64.452,-0.0419,-0.2972,0.2644,0.041,9.444,-3.951,-0.781074,0.001413,0.061409
3.7849998474121094,-26.14,1.665,-68.306,-0.052,-0.3261,0.2404,0.282,9.14,-3.485,-0.610603,0.043761,0.019698
3.8959999084472656,-26.271,1.905,-72.005,-0.0732,-0.3268,0.2252,0.266,9.222,-2.93,-0.690362,0.033452,0.039639
4.007999897003174,-26.322,2.175,-76.323,-0.0792,-0.3515,0.1864,0.083,10.952,-1.983,-0.381113,0.015145,0.021431
4.162999868392944,-26.656,2.051,-73.944,-0.0788,-0.3414,0.2033,0.475,10.57,-2.337,0.819819,-0.010078,-0.049412
4.284999847412109,-26.248,1.662,-66.476,-0.0632,-0.2944,0.2592,0.671,9.032,-3.566,1.134268,-0.144289,-0.018647
4.381999969482422,-25.499,1.288,-61.547,-0.054,-0.2576,0.298,-0.069,8.815,-4.219,1.159224,-0.205256,0.009372
4.494999885559082,-25.285,0.75,-52.643,-0.0381,-0.195,0.3561,0.437,8.268,-5.467,1.339296,-0.047807,-0.06834
4.609999895095825,-25.172,-0.07,-42.197,-0.0185,-0.1088,0.4151,0.056,6.427,-6.73,1.49487,-0.08657,-0.070639
4.768999814987183,-24.455,-0.903,-30.58,-0.0063,-0.0156,0.4492,-0.644,4.974,-7.982,1.179344,-0.10294,0.040443
4.888999938964844,-23.868,-1.499,-22.565,0.0075,0.0612,0.4659,-0.487,3.549,-8.962,1.176737,-0.178893,0.221241
4.990999937057495,-22.202,-2.1,-14.143,0.0179,0.1312,0.4749,-0.569,0.666,-9.019,1.650387,-0.243954,0.529048
5.101999998092651,-21.668,-2.465,-8.592,0.0162,0.1746,0.4746,-0.045,0.851,-9.664,0.258057,0.001833,-0.126472
5.203999996185303,-21.955,-2.462,-8.284,0.0192,0.1801,0.4686,-0.36,2.835,-9.463,0.166976,0.014091,-0.071273
5.309999942779541,-22.903,-2.807,-3.041,0.0228,0.2163,0.4694,0.065,0.213,-9.872,0.928499,-0.067775,-0.107651
5.41100001335144,-22.661,-2.939,-0.826,0.0243,0.2448,0.4642,2.276,0.68,-10.773,-0.005043,-0.031243,0.199957
5.562999963760376,-22.379,-3.016,-0.718,0.0243,0.2437,0.4666,-0.512,0.229,-9.756,0.016342,-0.020013,-0.00315
5.726999998092651,-22.375,-3.054,-0.659,0.0282,0.2426,0.4656,-0.918,0.259,-9.755,0.020512,-0.002814,-0.000259
5.8429999351501465,-20.913,-2.141,0.138,0.0195,0.2471,0.4639,0.846,1.247,-10.597,0.297515,0.178592,0.398492
5.94599986076355,-19.708,-3.204,3.795,0.0335,0.2754,0.4521,-3.821,-1.43,-9.802,0.897993,-0.203955,0.283431
6.056999921798706,-17.545,-3.237,10.675,0.0385,0.3242,0.422,-0.561,-1.228,-9.714,1.043296,0.021516,0.211449
6.164999961853027,-16.254,-3.407,16.937,0.0477,0.3673,0.3992,-0.765,-2.724,-9.029,1.125803,0.038508,0.222174
6.264999866485596,-15.308,-3.502,23.123,0.0519,0.406,0.3716,-0.695,-3.999,-8.331,1.015093,0.048533,0.161605
6.366999864578247,-13.684,-3.513,28.347,0.0581,0.4394,0.3512,-0.814,-4.673,-8.261,0.876539,0.144347,0.270025
6.5289998054504395,-11.871,-3.462,35.181,0.0604,0.4676,0.3071,-0.675,-5.635,-7.723,0.754621,0.09571,0.101752
6.641999959945679,-11.307,-3.487,40.836,0.0653,0.4985,0.2797,-0.674,-6.488,-7.163,0.855963,-0.015241,-0.023067
6.751999855041504,-11.078,-3.433,44.886,0.0682,0.5177,0.2537,-0.858,-7.409,-6.335,0.562035,0.099466,0.081752
6.855999946594238,-9.714,-3.194,47.241,0.0681,0.5165,0.2443,-0.893,-7.546,-6.275,0.305333,0.309397,0.204199
6.9700000286102295,-6.681,-2.927,48.903,0.0721,0.5264,0.2262,-0.536,-6.945,-6.662,0.252859,0.289825,0.244854
7.072000026702881,-5.713,-3.102,50.821,0.0767,0.523,0.2159,-0.195,-7.139,-5.94,0.376308,-0.054892,0.168812
7.177999973297119,-5.694,-3.226,53.432,0.0786,0.5358,0.1992,-0.272,-7.863,-5.764,0.460754,-0.053475,-0.054804
7.296999931335449,-6.409,-3.204,55.794,0.0786,0.5454,0.1861,-0.805,-9.175,-4.535,0.085111,-0.022665,-0.015858
7.395999908447266,-5.959,-3.251,55.854,0.0796,0.5508,0.1837,-1.0,-7.782,-4.836,0.105933,0.126215,0.094307
7.497999906539917,-4.943,-3.203,58.548,0.0768,0.5584,0.1775,-0.031,-8.369,-5.527,0.679083,0.131093,0.059237
7.599999904632568,-5.39,-3.172,61.269,0.0738,0.5669,0.1572,-1.083,-9.52,-4.065,0.278558,0.170709,0.086767
7.702999830245972,-3.97,-3.115,62.229,0.0719,0.5701,0.1523,-0.238,-7.222,-5.357,0.408319,0.104472,0.041177
7.813999891281128,-3.87,-2.999,66.593,0.0726,0.5807,0.1238,-0.399,-9.349,-3.824,0.680072,-0.004349,-0.023477
7.9659998416900635,-3.615,-2.953,68.422,0.0757,0.5842,0.0994,-0.494,-9.888,-2.992,-0.131135,0.09448,0.040754
8.128999948501587,-3.246,-3.047,64.94,0.074,0.578,0.1217,-0.36,-8.979,-3.906,-0.582423,0.016824,0.027677
8.258999824523926,-2.982,-3.188,59.164,0.0743,0.5686,0.1582,-0.387,-8.625,-4.649,-0.768541,0.003735,0.017124
8.360999822616577,-3.689,-3.285,54.424,0.0744,0.5538,0.1842,-0.514,-8.02,-5.845,-0.906416,-0.248929,-0.151485
8.434999942779541,-4.997,-3.395,49.584,0.0706,0.5315,0.2113,-0.612,-7.464,-6.194,-1.348686,-0.269569,-0.191124
8.53499984741211,-6.594,-3.466,40.689,0.0681,0.4988,0.2554,-0.278,-5.696,-7.133,-1.538946,-0.109192,-0.109594
8.686999797821045,-6.108,-3.452,29.612,0.0657,0.4351,0.3089,-0.779,-5.514,-7.493,-1.270309,0.204508,0.317664
8.812999963760376,-3.227,-3.299,20.272,0.0644,0.3778,0.3499,-0.376,-2.489,-9.657,-1.083012,0.090418,0.186972
8.92799997329712,-3.128,-3.221,15.115,0.0592,0.3429,0.3642,-0.444,-2.29,-9.453,-0.822843,0.005081,-0.026506
9.046000003814697,-2.795,-3.041,8.439,0.0577,0.2963,0.387,-0.207,-0.949,-9.95,-0.892373,0.050538,0.172336
9.149999856948853,-2.045,-2.931,4.273,0.051,0.2641,0.3946,-0.32,-0.507,-9.948,-0.555292,0.026738,0.10559
9.259999990463257,-0.933,-2.762,0.163,0.0515,0.2303,0.4102,-0.183,-0.133,-9.728,-0.602567,0.027774,0.191931
9.371999979019165,-0.684,-2.777,-0.564,0.0497,0.2366,0.4089,0.006,0.25,-9.912,0.010173,-0.026293,0.002427
9.483999967575073,-0.684,-2.776,-0.602,0.0495,0.2271,0.4102,-0.433,0.28,-9.792,-0.005379,0.007412,-0.000852
9.575999975204468,-0.684,-2.756,-0.608,0.0477,0.2303,0.4112,-0.574,0.078,-9.74,-0.002892,0.006049,-0.001238
9.724999904632568,-0.78,-2.553,-0.614,0.0505,0.2292,0.409,-1.325,0.114,-9.796,0.011638,0.080482,-0.058698
9.849999904632568,-1.045,0.608,-0.43,0.0242,0.2295,0.4158,-0.972,0.113,-9.74,0.040705,0.793148,-0.006273
9.959999799728394,-1.107,7.784,-0.011,-0.0361,0.2281,0.4139,1.175,0.058,-9.445,0.06453,1.120086,-0.002554
10.03499984741211,-1.114,12.786,0.275,-0.0765,0.2317,0.4118,1.827,0.027,-9.232,0.063624,1.22274,-0.005232
10.131999969482422,-1.078,20.213,0.713,-0.1368,0.2305,0.4053,2.91,-0.041,-8.844,0.078224,1.384609,-0.006948
10.240000009536743,-0.955,28.4,1.24,-0.2057,0.2322,0.3878,4.556,-0.089,-8.155,0.088766,1.450615,-0.002746
10.347999811172485,-0.73,36.514,1.839,-0.2648,0.2365,0.3583,6.792,-0.681,-7.358,0.080625,1.337651,-0.001754
10.454999923706055,-0.481,42.403,2.349,-0.3112,0.2347,0.334,7.936,-0.42,-6.891,0.044892,0.725761,-0.002533
10.569999933242798,-0.415,45.516,2.656,-0.3322,0.2306,0.318,7.076,-0.35,-6.764,0.010173,0.316814,-0.000754
10.669999837875366,-0.292,47.249,2.849,-0.3481,0.2392,0.3112,6.874,-0.437,-6.536,0.017357,0.331409,0.001815
10.770999908447266,-0.121,49.564,3.101,-0.3623,0.2413,0.2954,7.455,-0.398,-6.269,0.021389,0.453859,-0.000504
10.875999927520752,0.022,51.298,3.3,-0.3739,0.235,0.2834,9.434,-0.478,-5.862,-0.000556,0.046679,0.002197
10.973999977111816,-0.167,49.403,3.05,-0.3605,0.2403,0.2956,8.578,-0.29,-6.162,-0.035578,-0.621684,-0.00032
11.08299994468689,-0.737,43.7,2.435,-0.3206,0.2369,0.33,6.982,-0.415,-6.858,-0.017317,-0.877405,-0.034499
11.246999979019165,-1.141,35.108,1.693,-0.26,0.2375,0.3631,6.276,-0.261,-7.531,-0.065852,-1.153899,0.005485
11.376999855041504,-1.351,25.871,1.052,-0.1864,0.2379,0.3935,4.454,-0.169,-8.354,-0.081825,-1.373336,0.006392
11.482999801635742,-1.443,16.322,0.442,-0.1064,0.2319,0.4127,2.072,-0.018,-9.115,-0.070293,-1.215974,0.004392
11.55299997329712,-1.451,13.092,0.254,-0.081,0.2359,0.4104,1.44,-0.031,-9.311,-0.057867,-1.051353,0.003511
11.629999876022339,-1.448,9.153,0.024,-0.0482,0.2282,0.4168,1.144,-0.0,-9.535,-0.046495,-0.824473,0.002388
11.727999925613403,-1.425,4.808,-0.232,-0.0123,0.2383,0.4127,0.714,0.049,-9.626,-0.044484,-0.722041,0.000378
11.79699993133545,-1.398,1.785,-0.408,0.0148,0.2317,0.4177,-0.008,0.123,-9.744,-0.040675,-0.673866,0.000524
11.895999908447266,-1.476,-1.774,-0.62,0.0411,0.2335,0.4109,-0.727,-0.003,-9.852,-0.029044,-0.563863,-0.004877
12.004999876022339,-2.274,-2.634,-0.686,0.0512,0.2281,0.4081,-0.199,0.505,-9.913,0.015275,-0.001329,-0.032285
12.118000030517578,-2.361,-2.776,-0.662,0.0494,0.2302,0.4114,-0.938,0.604,-9.79,-0.0064,-0.029246,-0.10526
12.282999992370605,-4.161,-3.953,-0.704,0.056,0.2333,0.4071,0.306,0.172,-10.302,-0.030669,-0.388865,-0.206351
12.406999826431274,-6.074,-9.894,-0.93,0.1022,0.2346,0.3995,-0.887,-0.038,-9.579,-0.089871,-1.119312,-0.244187
12.513000011444092,-7.418,-16.438,-1.216,0.1479,0.2308,0.38,-3.011,0.174,-8.916,-0.136667,-1.135817,-0.332447
12.592000007629395,-9.145,-21.072,-1.422,0.1779,0.2398,0.3652,-3.623,0.064,-8.934,-0.214113,-0.997064,-0.481131
12.66599988937378,-11.906,-25.555,-1.661,0.2061,0.2323,0.352,-4.105,-0.054,-8.429,-0.346399,-1.01318,-0.619422
12.760999917984009,-13.409,-31.88,-2.12,0.2453,0.2402,0.3262,-4.655,-0.186,-8.329,-0.151361,-1.281744,-0.094822
12.833999872207642,-13.258,-38.159,-2.873,0.2833,0.2321,0.3016,-5.541,1.064,-7.356,-0.145019,-1.588931,0.000113
12.92799997329712,-13.077,-45.198,-3.392,0.3185,0.2337,0.2608,-5.989,-0.069,-6.07,-0.10264,-1.730518,-0.060439
13.08299994468689,-11.223,-61.607,-5.965,0.3932,0.2375,0.1712,-9.609,0.494,-4.444,0.016999,-1.270283,-0.009507
13.20199990272522,-9.955,-66.038,-6.656,0.4081,0.2428,0.1332,-10.316,0.026,-2.95,0.148045,-0.284894,0.10377
13.325999975204468,-8.985,-64.928,-7.186,0.4042,0.2376,0.1308,-10.156,0.653,-3.495,-0.008502,0.516345,0.062106
13.385999917984009,-9.823,-61.742,-6.513,0.3942,0.2305,0.1591,-10.005,0.638,-4.1,0.018406,0.98503,0.050716
13.484999895095825,-10.409,-53.929,-4.945,0.3651,0.2343,0.207,-7.558,0.378,-5.002,0.267556,1.550729,0.212837
13.553999900817871,-10.341,-49.621,-4.314,0.345,0.2327,0.2358,-7.318,1.177,-5.924,0.214454,1.453738,-0.00971
13.6489999294281,-10.242,-42.291,-3.061,0.3128,0.2272,0.2781,-6.056,0.472,-7.25,0.30517,1.208089,0.225586
13.759999990463257,-7.355,-33.766,-2.241,0.2676,0.23,0.3102,-5.253,-0.012,-7.73,0.23948,1.082132,0.24411
13.86299991607666,-7.288,-27.183,-1.83,0.2223,0.2266,0.3401,-4.137,0.655,-8.572,0.008769,1.252392,-0.085849
13.97000002861023,-7.552,-19.72,-1.386,0.1739,0.2239,0.3692,-2.383,0.229,-9.161,0.041018,1.288621,-0.028379
14.074999809265137,-7.698,-14.005,-1.088,0.1359,0.2223,0.3891,-1.573,-0.134,-9.947,0.024959,0.64521,-0.025012
14.172999858856201,-7.591,-11.6,-0.955,0.1164,0.2278,0.3937,-3.47,0.057,-8.693,0.044868,0.575957,0.088213
14.28600001335144,-7.715,-4.078,-0.638,0.0558,0.2233,0.3999,-0.976,0.098,-9.641,0.049337,1.274801,-0.048648
14.408999919891357,-8.548,-2.901,-0.562,0.047,0.2249,0.4091,-1.676,0.126,-9.95,-0.008591,0.012536,-0.000568
14.513999938964844,-8.528,-2.807,-0.586,0.0461,0.226,0.4114,-0.683,0.209,-9.67,0.004958,0.027516,0.006352
14.595999956130981,-8.53,-2.834,-0.61,0.0469,0.2197,0.4092,-0.785,0.225,-9.735,-0.002768,-0.014463,0.001156
14.666999816894531,-8.53,-2.81,-0.621,0.0452,0.225,0.4125,-1.231,0.011,-9.585,-0.01382,0.043357,0.002795
14.766999959945679,-8.528,-2.828,-0.61,0.0442,0.225,0.4113,-0.67,0.035,-9.68,0.027265,-0.029852,0.003767
14.924000024795532,-12.613,-4.507,0.571,0.0527,0.2364,0.4012,1.696,-0.448,-12.507,0.525857,-0.549711,-0.483069
15.049000024795532,-17.604,-10.403,2.309,0.0902,0.2537,0.389,-3.588,-1.256,-8.595,-0.515923,-0.448435,-0.878119
15.155999898910522,-24.891,-8.234,-0.506,0.0674,0.234,0.3905,-2.091,0.148,-8.67,-0.862499,0.810263,-1.509103
15.234999895095825,-33.986,-4.86,-4.391,0.0274,0.206,0.4044,-0.593,0.785,-9.231,-0.786893,0.383637,-1.464486
15.329999923706055,-43.88,-4.686,-6.262,0.0141,0.1914,0.4086,-2.267,2.178,-8.411,-0.175508,0.23452,-1.950365
15.43999981880188,-57.452,-4.106,-5.564,-0.0077,0.1862,0.4144,0.004,0.988,-8.494,-0.112438,0.226754,-2.213072
15.51199984550476,-65.87,-5.257,-5.897,-0.006,0.1778,0.4123,-0.481,1.415,-8.303,-0.348149,-0.373065,-1.812885
15.607999801635742,-77.434,-7.144,-6.056,-0.0021,0.1657,0.4153,-2.404,1.155,-8.804,-0.196919,0.398572,-2.073147
15.715999841690063,-86.631,-3.737,-6.097,-0.0381,0.1558,0.4186,2.628,0.79,-10.819,-0.09087,0.776197,-0.325113
15.791999816894531,-83.266,-1.389,-5.684,-0.052,0.1676,0.4212,0.422,2.592,-11.422,0.319693,0.197515,1.154996
15.889999866485596,-78.521,-0.278,-3.641,-0.0583,0.1846,0.4171,0.472,0.079,-10.575,0.277422,0.097854,0.941192
16.000999927520752,-69.546,2.614,-3.764,-0.0705,0.1868,0.4152,2.479,-0.167,-9.624,-0.328865,0.487622,2.171706
16.074999809265137,-58.709,4.286,-5.043,-0.0753,0.1885,0.4146,0.94,1.41,-10.398,-0.491348,-0.089325,2.579205
16.168999910354614,-47.321,3.335,-5.833,-0.0557,0.1884,0.4198,-0.893,2.729,-10.437,0.050169,-0.308605,1.34126
16.283999919891357,-31.141,2.135,-1.413,-0.0295,0.2284,0.4124,0.863,0.636,-9.199,0.85254,-0.289276,2.899991
16.393999814987183,-14.219,0.767,3.407,0.0091,0.2645,0.3964,-0.619,-0.585,-8.559,0.581549,-0.101644,2.781323
16.491999864578247,0.753,-0.285,5.38,0.0342,0.2779,0.3911,-0.618,-0.73,-9.23,0.203819,0.178939,2.658802
16.64199995994568,21.007,-1.197,6.708,0.0632,0.2764,0.3926,-0.105,0.083,-10.076,0.26779,-0.223026,1.931172
16.80999994277954,36.173,-2.191,11.441,0.088,0.287,0.3787,-1.879,-1.926,-9.474,0.086921,0.69311,0.3807
16.938999891281128,38.047,1.352,9.828,0.0598,0.2758,0.3936,0.604,-0.83,-10.159,-0.185974,0.307964,0.189515
17.05399990081787,35.86,1.914,8.6,0.0551,0.2769,0.3945,0.234,-0.543,-9.925,-0.306866,-0.018053,-0.877112
17.16599988937378,23.008,3.34,3.841,0.0311,0.2486,0.4019,0.677,-0.537,-9.79,-0.73889,-0.056725,-2.436787
17.268999814987183,9.589,3.304,-1.131,0.0142,0.2174,0.4113,2.279,-0.406,-9.362,-0.808056,-0.198025,-2.112224
17.378999948501587,-0.233,0.748,-4.988,0.0251,0.1951,0.4181,0.513,0.585,-9.083,-0.374135,-0.334416,-1.101382
17.490000009536743,-7.491,-1.225,-5.48,0.0242,0.1929,0.4222,-0.457,2.544,-9.69,0.189364,-0.33309,-1.464864
17.592000007629395,-16.112,-5.132,-2.872,0.0472,0.2149,0.4137,0.404,-1.069,-9.374,0.440511,-0.666073,-1.073209
17.674000024795532,-16.906,-7.665,-1.884,0.068,0.2231,0.41,-1.592,-0.759,-9.509,-0.00233,-0.358868,0.433012
17.764999866485596,-15.284,-7.35,-2.997,0.0669,0.2147,0.4101,-1.755,1.124,-9.925,-0.135854,0.280834,0.096735
17.924999952316284,-14.561,-3.767,-1.722,0.0388,0.2151,0.4214,-0.362,-0.332,-8.97,0.069816,0.266279,-0.036332
18.038999795913696,-15.467,-2.998,-0.62,0.0363,0.2342,0.4209,-1.155,0.513,-9.268,0.003973,0.111597,-0.005334
18.13599991798401,-15.471,-2.898,-0.594,0.0286,0.2247,0.4172,0.11,0.008,-9.762,0.004985,-0.019757,-0.000884
18.234999895095825,-15.472,-2.903,-0.608,0.0313,0.2225,0.4162,-0.78,0.063,-9.776,-0.008741,0.001931,0.001694
18.34500002861023,-15.473,-2.897,-0.612,0.0323,0.2246,0.4139,-0.66,0.315,-9.824,0.00242,-0.000267,-0.000829
18.45199990272522,-15.472,-2.898,-0.609,0.0333,0.2257,0.4186,-0.444,0.043,-9.74,0.00098,0.001623,-0.000829
18.575999975204468,-15.472,-2.897,-0.612,0.0333,0.2257,0.4151,-0.488,0.068,-9.731,-0.001688,0.000267,0.001468
18.68499994277954,-15.473,-2.898,-0.615,0.0305,0.2257,0.4184,-0.508,0.108,-9.746,-0.0022,-0.000476,0.000165
18.793999910354614,-15.473,-2.897,-0.614,0.0304,0.2246,0.4103,-0.486,0.127,-9.738,0.001668,0.001696,0.001083
18.870999813079834,-15.474,-2.898,-0.614,0.0314,0.2257,0.415,-0.484,0.09,-9.715,-0.000969,0.000945,-0.00153
18.97000002861023,-15.474,-2.898,-0.614,0.0315,0.2289,0.4161,-0.483,0.114,-9.771,0.000344,-0.000697,-0.000959
19.12999987602234,-15.477,-2.9,-0.616,0.0304,0.2246,0.4126,-0.565,0.103,-9.751,-0.002138,0.00195,-0.000586
19.253000020980835,-15.478,-2.901,-0.618,0.0314,0.2215,0.4197,-0.538,0.115,-9.748,0.001052,-0.000255,0.000149
19.35099983215332,-15.48,-2.901,-0.62,0.0285,0.2204,0.4173,-0.543,0.079,-9.724,0.000781,0.001088,-0.001232
19.455999851226807,-15.478,-2.903,-0.621,0.0314,0.2268,0.4161,-0.56,0.096,-9.741,-0.001521,0.000346,-0.000115
19.567999839782715,-15.476,-2.905,-0.622,0.0296,0.2268,0.4172,-0.454,0.085,-9.697,0.000872,0.000952,-0.00161
19.66699981689453,-15.475,-2.908,-0.623,0.0314,0.2268,0.4138,-0.473,0.073,-9.701,0.000358,-0.00012,0.000535
19.768999814987183,-15.474,-2.911,-0.625,0.0294,0.2204,0.4138,-0.486,0.094,-9.75,-0.001638,0.000398,-6.2e-05
19.88099980354309,-15.474,-2.919,-0.63,0.0305,0.2257,0.4173,-0.481,0.169,-9.729,-0.00128,0.000708,-0.000496
19.98799991607666,-15.473,-2.927,-0.633,0.0277,0.2279,0.4159,-0.494,0.042,-9.772,2.1e-05,0.002047,-0.001262
20.09999990463257,-15.472,-2.933,-0.636,0.0295,0.2236,0.4184,-0.557,0.143,-9.789,-0.000848,-0.000469,0.000447
20.253999948501587,-15.474,-2.943,-0.64,0.0295,0.2236,0.4161,-0.534,0.11,-9.763,-0.0009,6e-05,-7.3e-05
20.38699984550476,-15.475,-2.957,-0.641,0.0323,0.2225,0.4163,-0.511,0.069,-9.766,-0.001205,-0.000587,-0.000648
20.5,-15.476,-2.964,-0.643,0.0286,0.2258,0.4183,-0.491,0.089,-9.839,-0.000703,0.000338,0.000416
20.60599994659424,-15.475,-2.97,-0.645,0.0314,0.2215,0.4197,-0.46,0.049,-9.707,0.001929,-0.0002,0.000217
20.717999935150146,-15.477,-2.977,-0.642,0.0315,0.2321,0.4126,-0.461,0.113,-9.791,-0.000695,-0.000145,0.00068
20.883999824523926,-15.477,-2.977,-0.637,0.0324,0.2257,0.4197,-0.511,0.153,-9.785,0.000339,-0.000565,0.000492
21.024999856948853,-15.476,-2.975,-0.633,0.0314,0.2247,0.4173,-0.564,0.124,-9.761,0.000135,0.002028,-0.000237
21.13599991798401,-15.476,-2.976,-0.636,0.0305,0.2247,0.4173,-0.537,0.131,-9.741,0.000827,-0.000386,-0.001166
21.245999813079834,-15.479,-2.976,-0.636,0.0286,0.2268,0.4183,-0.404,0.004,-9.655,0.003358,0.000122,-0.001082
